Posição (m) ,Intensidade do campo magnético (10 X) (T) 
0.94,-6.03756E-05
0.942,-4.36479E-05
0.944,-1.85945E-05
0.946,1.33451E-05
0.948,5.86644E-05
0.95,1.17415E-04
0.952,1.82058E-04
0.954,2.62152E-04
0.956,3.52030E-04
0.958,4.45334E-04
0.96,5.46240E-04
0.962,6.56978E-04
0.964,7.53841E-04
0.966,8.46459E-04
0.968,9.24005E-04
0.97,9.98808E-04
0.972,1.03000E-03
0.974,1.06000E-03
0.976,1.06000E-03
0.978,1.04000E-03
0.98,1.00000E-03
0.982,9.49279E-04
0.984,8.79761E-04
0.986,7.90949E-04
0.988,6.94160E-04
0.99,5.80464E-04
0.992,4.89215E-04
0.994,3.93859E-04
0.996,2.93276E-04
0.998,2.12808E-04
1,1.38938E-04